File: Structure_seq_analysis/Shapemapper_out/Eco_invivo_combined_Ser-TGA-1-1_profile.txt
Nucleotide	Sequence	Modified_mutations	Modified_read_depth	Modified_effective_depth	Modified_rate	Modified_off_target_mapped_depth	Modified_low_mapq_mapped_depth	Modified_mapped_depth	Untreated_mutations	Untreated_read_depth	Untreated_effective_depth	Untreated_rate	Untreated_off_target_mapped_depth	Untreated_low_mapq_mapped_depth	Untreated_mapped_depth	Denatured_mutations	Denatured_read_depth	Denatured_effective_depth	Denatured_rate	Denatured_off_target_mapped_depth	Denatured_low_mapq_mapped_depth	Denatured_mapped_depth	Reactivity_profile	Std_err	HQ_profile	HQ_stderr	Norm_profile	Norm_stderr
1	G	0	4476	4274	0.000000	0	0	4476	0	5983	5724	0.000000	0	0	5983	0	0	0	nan	0	0	0	0.000000	0.000000	0.000000	0.000000	0.000000	0.000000
2	G	0	4657	4438	0.000000	0	0	4657	0	6108	5829	0.000000	0	0	6108	0	0	0	nan	0	0	0	0.000000	0.000000	0.000000	0.000000	0.000000	0.000000
3	A	29	4862	4702	0.006168	0	0	4862	9	6150	5931	0.001517	0	0	6150	0	0	0	nan	0	0	0	0.004650	0.001252	0.004650	0.001252	0.111321	0.029973
4	A	41	4896	4761	0.008612	0	0	4896	17	6160	5940	0.002862	0	0	6160	0	0	0	nan	0	0	0	0.005750	0.001513	0.005750	0.001513	0.137655	0.036221
5	G	431	4916	4710	0.091507	0	0	4916	61	6165	5874	0.010385	0	0	6165	0	0	0	nan	0	0	0	0.081123	0.004604	0.081123	0.004604	1.942089	0.110220
6	U	67	4996	4754	0.014093	0	0	4996	73	6210	5877	0.012421	0	0	6210	0	0	0	nan	0	0	0	0.001672	0.002253	0.001672	0.002253	0.040028	0.053937
7	G	105	5002	4705	0.022317	0	0	5002	54	6225	5878	0.009187	0	0	6225	0	0	0	nan	0	0	0	0.013130	0.002511	0.013130	0.002511	0.314333	0.060113
8	U	1242	5071	4749	0.261529	0	0	5071	1103	6310	5917	0.186412	0	0	6310	0	0	0	nan	0	0	0	0.075117	0.009305	nan	nan	nan	nan
9	G	93	5170	4863	0.019124	0	0	5170	70	6377	5988	0.011690	0	0	6377	0	0	0	nan	0	0	0	0.007434	0.002426	0.007434	0.002426	0.177970	0.058079
10	G	302	5226	4973	0.060728	0	0	5226	126	6409	6073	0.020748	0	0	6409	0	0	0	nan	0	0	0	0.039980	0.003953	0.039980	0.003953	0.957123	0.094635
11	C	82	5293	5087	0.016120	0	0	5293	66	6458	6173	0.010692	0	0	6458	0	0	0	nan	0	0	0	0.005428	0.002214	0.005428	0.002214	0.129947	0.053003
12	C	67	5328	5159	0.012987	0	0	5328	39	6501	6283	0.006207	0	0	6501	0	0	0	nan	0	0	0	0.006780	0.001872	0.006780	0.001872	0.162314	0.044816
13	G	77	5369	4973	0.015484	0	0	5369	21	6546	6030	0.003483	0	0	6546	0	0	0	nan	0	0	0	0.012001	0.001921	0.012001	0.001921	0.287305	0.045989
14	A	119	5397	4991	0.023843	0	0	5397	26	6569	6073	0.004281	0	0	6569	0	0	0	nan	0	0	0	0.019562	0.002341	0.019562	0.002341	0.468315	0.056044
15	G	183	5451	5052	0.036223	0	0	5451	76	6583	6096	0.012467	0	0	6583	0	0	0	nan	0	0	0	0.023756	0.003036	0.023756	0.003036	0.568720	0.072682
16	C	268	5545	5355	0.050047	0	0	5545	91	6641	6409	0.014199	0	0	6641	0	0	0	nan	0	0	0	0.035848	0.003400	0.035848	0.003400	0.858203	0.081396
17	G	98	5595	5390	0.018182	0	0	5595	51	6654	6415	0.007950	0	0	6654	0	0	0	nan	0	0	0	0.010232	0.002148	0.010232	0.002148	0.244955	0.051423
18	G	104	5702	5451	0.019079	0	0	5702	56	6697	6416	0.008728	0	0	6697	0	0	0	nan	0	0	0	0.010351	0.002205	0.010351	0.002205	0.247804	0.052788
19	U	149	6825	6538	0.022790	0	0	6825	246	6994	6731	0.036547	0	0	6994	0	0	0	nan	0	0	0	-0.013757	0.002986	-0.013757	0.002986	-0.329343	0.071485
20	U	23	7344	7029	0.003272	0	0	7344	27	7226	6928	0.003897	0	0	7226	0	0	0	nan	0	0	0	-0.000625	0.001014	-0.000625	0.001014	-0.014963	0.024275
21	G	176	7618	7232	0.024336	0	0	7618	45	7542	7134	0.006308	0	0	7542	0	0	0	nan	0	0	0	0.018028	0.002061	0.018028	0.002061	0.431591	0.049340
22	A	136	7906	7516	0.018095	0	0	7906	26	7618	7183	0.003620	0	0	7618	0	0	0	nan	0	0	0	0.014475	0.001706	0.014475	0.001706	0.346532	0.040842
23	A	732	8024	7577	0.096608	0	0	8024	33	7638	7187	0.004592	0	0	7638	0	0	0	nan	0	0	0	0.092017	0.003659	0.092017	0.003659	2.202892	0.087597
24	G	126	8494	8035	0.015681	0	0	8494	97	7663	7268	0.013346	0	0	7663	0	0	0	nan	0	0	0	0.002335	0.001946	0.002335	0.001946	0.055900	0.046587
25	G	311	8562	8141	0.038202	0	0	8562	96	7683	7320	0.013115	0	0	7683	0	0	0	nan	0	0	0	0.025087	0.002546	0.025087	0.002546	0.600584	0.060951
26	C	45	8638	8108	0.005550	0	0	8638	41	7702	7273	0.005637	0	0	7702	0	0	0	nan	0	0	0	-0.000087	0.001208	-0.000087	0.001208	-0.002083	0.028920
27	A	690	8665	8233	0.083809	0	0	8665	82	7728	7406	0.011072	0	0	7728	0	0	0	nan	0	0	0	0.072737	0.003417	0.072737	0.003417	1.741328	0.081803
28	C	148	8733	8264	0.017909	0	0	8733	138	7750	7377	0.018707	0	0	7750	0	0	0	nan	0	0	0	-0.000798	0.002169	-0.000798	0.002169	-0.019104	0.051926
29	C	70	8774	8405	0.008328	0	0	8774	81	7809	7460	0.010858	0	0	7809	0	0	0	nan	0	0	0	-0.002530	0.001564	-0.002530	0.001564	-0.060568	0.037442
30	G	234	8789	8330	0.028091	0	0	8789	75	7844	7407	0.010126	0	0	7844	0	0	0	nan	0	0	0	0.017966	0.002177	0.017966	0.002177	0.430107	0.052117
31	G	348	8801	8307	0.041892	0	0	8801	77	7860	7412	0.010389	0	0	7860	0	0	0	nan	0	0	0	0.031504	0.002539	0.031504	0.002539	0.754207	0.060784
32	U	121	8875	8466	0.014292	0	0	8875	132	7960	7574	0.017428	0	0	7960	0	0	0	nan	0	0	0	-0.003136	0.001997	-0.003136	0.001997	-0.075076	0.047808
33	C	383	8882	8539	0.044853	0	0	8882	229	7991	7668	0.029864	0	0	7991	0	0	0	nan	0	0	0	0.014989	0.003024	0.014989	0.003024	0.358837	0.072395
34	U	175	9063	8719	0.020071	0	0	9063	197	8263	7933	0.024833	0	0	8263	0	0	0	nan	0	0	0	-0.004762	0.002331	-0.004762	0.002331	-0.114003	0.055804
35	U	754	9132	8694	0.086726	0	0	9132	393	8359	7978	0.049260	0	0	8359	0	0	0	nan	0	0	0	0.037466	0.004019	0.037466	0.004019	0.896938	0.096215
36	G	176	9220	8811	0.019975	0	0	9220	58	8471	8077	0.007181	0	0	8471	0	0	0	nan	0	0	0	0.012794	0.001777	0.012794	0.001777	0.306289	0.042541
37	A	62	9321	8907	0.006961	0	0	9321	18	8565	8199	0.002195	0	0	8565	0	0	0	nan	0	0	0	0.004765	0.001024	0.004765	0.001024	0.114074	0.024515
38	A	670	9421	8994	0.074494	0	0	9421	660	8593	8240	0.080097	0	0	8593	0	0	0	nan	0	0	0	-0.005603	0.004243	nan	nan	nan	nan
39	A	401	9589	8724	0.045965	0	0	9589	13	8768	8084	0.001608	0	0	8768	0	0	0	nan	0	0	0	0.044357	0.002338	0.044357	0.002338	1.061909	0.055972
40	A	94	9782	8980	0.010468	0	0	9782	80	8779	8122	0.009850	0	0	8779	0	0	0	nan	0	0	0	0.000618	0.001542	0.000618	0.001542	0.014795	0.036916
41	C	79	9801	9021	0.008757	0	0	9801	60	8790	8159	0.007354	0	0	8790	0	0	0	nan	0	0	0	0.001404	0.001368	0.001404	0.001368	0.033612	0.032750
42	C	76	9806	9360	0.008120	0	0	9806	84	8794	8426	0.009969	0	0	8794	0	0	0	nan	0	0	0	-0.001849	0.001432	-0.001849	0.001432	-0.044265	0.034282
43	G	267	9815	9191	0.029050	0	0	9815	96	8810	8300	0.011566	0	0	8810	0	0	0	nan	0	0	0	0.017484	0.002134	0.017484	0.002134	0.418568	0.051088
44	G	354	9816	9192	0.038512	0	0	9816	112	8812	8316	0.013468	0	0	8812	0	0	0	nan	0	0	0	0.025044	0.002410	0.025044	0.002410	0.599555	0.057696
45	C	516	9820	9265	0.055693	0	0	9820	124	8819	8353	0.014845	0	0	8819	0	0	0	nan	0	0	0	0.040849	0.002791	0.040849	0.002791	0.977927	0.066817
46	G	108	9830	8791	0.012285	0	0	9830	28	8827	7956	0.003519	0	1	8827	0	0	0	nan	0	0	0	0.008766	0.001356	0.008766	0.001356	0.209859	0.032463
47	A	419	9833	8785	0.047695	0	0	9833	72	8834	7945	0.009062	0	1	8834	0	0	0	nan	0	0	0	0.038633	0.002563	0.038633	0.002563	0.924876	0.061358
48	C	72	9837	8801	0.008181	0	0	9837	104	8837	7956	0.013072	0	1	8837	0	0	0	nan	0	0	0	-0.004891	0.001604	-0.004891	0.001604	-0.117091	0.038400
49	C	59	9836	9374	0.006294	0	0	9836	66	8840	8450	0.007811	0	1	8840	0	0	0	nan	0	0	0	-0.001517	0.001263	-0.001517	0.001263	-0.036317	0.030236
50	C	62	9837	9247	0.006705	0	0	9837	56	8838	8354	0.006703	0	1	8838	0	0	0	nan	0	0	0	0.000002	0.001236	0.000002	0.001236	0.000048	0.029590
51	G	180	9837	9352	0.019247	0	0	9837	35	8837	8433	0.004150	0	1	8837	0	0	0	nan	0	0	0	0.015097	0.001597	0.015097	0.001597	0.361423	0.038232
52	A	365	9840	9414	0.038772	0	0	9840	26	8839	8476	0.003067	0	1	8839	0	0	0	nan	0	0	0	0.035705	0.002117	0.035705	0.002117	0.854780	0.050681
53	A	390	9842	9592	0.040659	0	0	9842	23	8838	8626	0.002666	0	1	8838	0	0	0	nan	0	0	0	0.037993	0.002133	0.037993	0.002133	0.909554	0.051064
54	A	419	9843	9436	0.044404	0	0	9843	24	8833	8493	0.002826	0	1	8833	0	0	0	nan	0	0	0	0.041579	0.002245	0.041579	0.002245	0.995404	0.053745
55	G	315	9837	9185	0.034295	0	0	9837	115	8828	8294	0.013865	0	1	8828	0	0	0	nan	0	0	0	0.020430	0.002325	0.020430	0.002325	0.489095	0.055661
56	G	263	9838	9002	0.029216	0	0	9838	103	8825	8116	0.012691	0	1	8825	0	0	0	nan	0	0	0	0.016525	0.002193	0.016525	0.002193	0.395609	0.052501
57	G	408	9835	8995	0.045359	0	0	9835	71	8818	8074	0.008794	0	1	8818	0	0	0	nan	0	0	0	0.036565	0.002476	0.036565	0.002476	0.875368	0.059276
58	U	144	9841	9105	0.015815	0	0	9841	132	8819	8164	0.016169	0	2	8819	0	0	0	nan	0	0	0	-0.000353	0.001928	-0.000353	0.001928	-0.008451	0.046156
59	U	106	9851	9147	0.011588	0	0	9851	112	8829	8211	0.013640	0	2	8829	0	0	0	nan	0	0	0	-0.002052	0.001711	-0.002052	0.001711	-0.049125	0.040961
60	C	103	9860	9139	0.011270	0	0	9860	67	8833	8260	0.008111	0	2	8833	0	0	0	nan	0	0	0	0.003159	0.001488	0.003159	0.001488	0.075627	0.035623
61	C	50	9889	9253	0.005404	0	0	9889	21	8842	8344	0.002517	0	2	8842	0	0	0	nan	0	0	0	0.002887	0.000941	0.002887	0.000941	0.069115	0.022528
62	A	143	9892	9339	0.015312	0	0	9892	31	8852	8392	0.003694	0	2	8852	0	0	0	nan	0	0	0	0.011618	0.001442	0.011618	0.001442	0.278136	0.034522
63	G	157	9888	9513	0.016504	0	0	9888	56	8851	8498	0.006590	0	2	8851	0	0	0	nan	0	0	0	0.009914	0.001584	0.009914	0.001584	0.237342	0.037921
64	A	148	9886	9393	0.015756	0	0	9886	51	8852	8441	0.006042	0	2	8852	0	0	0	nan	0	0	0	0.009714	0.001547	0.009714	0.001547	0.232554	0.037035
65	G	531	9879	9262	0.057331	0	0	9879	101	8849	8372	0.012064	0	2	8849	0	0	0	nan	0	0	0	0.045267	0.002762	0.045267	0.002762	1.083694	0.066122
66	U	210	9882	9155	0.022938	0	0	9882	336	8851	8253	0.040712	0	2	8851	0	0	0	nan	0	0	0	-0.017774	0.002727	-0.017774	0.002727	-0.425511	0.065285
67	U	180	9882	9057	0.019874	0	0	9882	153	8852	8167	0.018734	0	2	8852	0	0	0	nan	0	0	0	0.001140	0.002119	0.001140	0.002119	0.027292	0.050729
68	C	170	9875	9086	0.018710	0	0	9875	142	8850	8196	0.017326	0	2	8850	0	0	0	nan	0	0	0	0.001385	0.002043	0.001385	0.002043	0.033157	0.048910
69	G	45	9875	9053	0.004971	0	0	9875	34	8847	8269	0.004112	0	2	8847	0	0	0	nan	0	0	0	0.000859	0.001023	0.000859	0.001023	0.020565	0.024491
70	A	4885	9871	9028	0.541094	0	0	9871	29	8846	8083	0.003588	0	2	8846	0	0	0	nan	0	0	0	0.537507	0.007770	0.537507	0.007770	12.8679	0.186014
71	A	113	9869	9156	0.012342	0	0	9869	75	8842	8176	0.009173	0	2	8842	0	0	0	nan	0	0	0	0.003168	0.001572	0.003168	0.001572	0.075842	0.037634
72	U	59	9867	9223	0.006397	0	0	9867	126	8837	8168	0.015426	0	2	8837	0	0	0	nan	0	0	0	-0.009029	0.001607	-0.009029	0.001607	-0.216155	0.038472
73	C	69	9861	9281	0.007435	0	0	9861	86	8830	8276	0.010391	0	2	8830	0	0	0	nan	0	0	0	-0.002957	0.001434	-0.002957	0.001434	-0.070791	0.034330
74	U	93	9850	9239	0.010066	0	0	9850	121	8814	8222	0.014717	0	2	8814	0	0	0	nan	0	0	0	-0.004651	0.001697	-0.004651	0.001697	-0.111345	0.040626
75	C	125	9841	8982	0.013917	0	0	9841	105	8808	7895	0.013300	0	2	8808	0	0	0	nan	0	0	0	0.000617	0.001798	0.000617	0.001798	0.014771	0.043044
76	U	80	9830	8884	0.009005	0	0	9830	67	8795	7866	0.008518	0	2	8795	0	0	0	nan	0	0	0	0.000487	0.001448	0.000487	0.001448	0.011659	0.034665
77	G	229	9824	8380	0.027327	0	0	9824	91	8790	7291	0.012481	0	2	8790	0	0	0	nan	0	0	0	0.014846	0.002230	0.014846	0.002230	0.355414	0.053386
78	C	100	9821	8259	0.012108	0	0	9821	52	8787	7133	0.007290	0	2	8787	0	0	0	nan	0	0	0	0.004818	0.001577	0.004818	0.001577	0.115343	0.037753
79	G	323	9816	8369	0.038595	0	0	9816	101	8782	7151	0.014124	0	2	8782	0	0	0	nan	0	0	0	0.024471	0.002566	0.024471	0.002566	0.585837	0.061430
80	C	181	9814	8724	0.020747	0	0	9814	111	8782	7712	0.014393	0	2	8782	0	0	0	nan	0	0	0	0.006354	0.002060	0.006354	0.002060	0.152115	0.049317
81	U	121	9807	8988	0.013462	0	0	9807	94	8781	8102	0.011602	0	2	8781	0	0	0	nan	0	0	0	0.001860	0.001712	0.001860	0.001712	0.044529	0.040985
82	U	139	9800	9030	0.015393	0	0	9800	128	8777	8180	0.015648	0	2	8777	0	0	0	nan	0	0	0	-0.000255	0.001902	-0.000255	0.001902	-0.006105	0.045534
83	C	111	9794	8919	0.012445	0	0	9794	81	8776	8023	0.010096	0	2	8776	0	0	0	nan	0	0	0	0.002349	0.001629	0.002349	0.001629	0.056235	0.038998
84	C	159	9789	8763	0.018144	0	0	9789	175	8773	7944	0.022029	0	2	8773	0	0	0	nan	0	0	0	-0.003885	0.002201	-0.003885	0.002201	-0.093007	0.052692
85	G	574	9755	8634	0.066481	0	0	9755	165	8758	7868	0.020971	0	2	8758	0	0	0	nan	0	0	0	0.045510	0.003220	0.045510	0.003220	1.089512	0.077087
86	C	418	9742	8728	0.047892	0	0	9742	80	8758	7988	0.010015	0	2	8758	0	0	0	nan	0	0	0	0.037877	0.002596	0.037877	0.002596	0.906777	0.062148
87	C	448	9720	8530	0.052521	0	0	9720	11	8752	7958	0.001382	0	2	8752	0	0	0	nan	0	0	0	0.051138	0.002516	0.051138	0.002516	1.224246	0.060233
88	A	0	9378	0	nan	0	0	9378	0	8634	0	nan	0	2	8634	0	0	0	nan	0	0	0	nan	nan	nan	nan	nan	nan