File: MaP_analysis/MaP_data_rep1/Eco_invivo_rep1_Ser-TGA-1-1_profile.txt
Nucleotide	Sequence	Modified_mutations	Modified_read_depth	Modified_effective_depth	Modified_rate	Modified_off_target_mapped_depth	Modified_low_mapq_mapped_depth	Modified_mapped_depth	Untreated_mutations	Untreated_read_depth	Untreated_effective_depth	Untreated_rate	Untreated_off_target_mapped_depth	Untreated_low_mapq_mapped_depth	Untreated_mapped_depth	Denatured_mutations	Denatured_read_depth	Denatured_effective_depth	Denatured_rate	Denatured_off_target_mapped_depth	Denatured_low_mapq_mapped_depth	Denatured_mapped_depth	Reactivity_profile	Std_err	HQ_profile	HQ_stderr	Norm_profile	Norm_stderr
1	G	0	2074	1986	0.000000	0	0	2074	0	3177	3045	0.000000	0	0	3177	0	0	0	nan	0	0	0	0.000000	0.000000	0.000000	0.000000	0.000000	0.000000
2	G	0	2167	2068	0.000000	0	0	2167	0	3248	3106	0.000000	0	0	3248	0	0	0	nan	0	0	0	0.000000	0.000000	0.000000	0.000000	0.000000	0.000000
3	A	14	2269	2198	0.006369	0	0	2269	4	3270	3154	0.001268	0	0	3270	0	0	0	nan	0	0	0	0.005101	0.001817	0.005101	0.001817	0.114668	0.040845
4	A	21	2284	2220	0.009459	0	0	2284	7	3275	3159	0.002216	0	0	3275	0	0	0	nan	0	0	0	0.007244	0.002228	0.007244	0.002228	0.162841	0.050084
5	G	191	2295	2194	0.087056	0	0	2295	31	3276	3124	0.009923	0	0	3276	0	0	0	nan	0	0	0	0.077132	0.006546	0.077132	0.006546	1.733888	0.147151
6	U	37	2338	2222	0.016652	0	0	2338	26	3298	3125	0.008320	0	0	3298	0	0	0	nan	0	0	0	0.008332	0.003187	0.008332	0.003187	0.187299	0.071642
7	G	50	2343	2201	0.022717	0	0	2343	27	3310	3120	0.008654	0	0	3310	0	0	0	nan	0	0	0	0.014063	0.003619	0.014063	0.003619	0.316129	0.081353
8	U	587	2382	2228	0.263465	0	0	2382	458	3346	3135	0.146093	0	0	3346	0	0	0	nan	0	0	0	0.117372	0.012839	nan	nan	nan	nan
9	G	43	2436	2284	0.018827	0	0	2436	44	3377	3162	0.013915	0	0	3377	0	0	0	nan	0	0	0	0.004911	0.003556	0.004911	0.003556	0.110397	0.079937
10	G	144	2466	2344	0.061433	0	0	2466	72	3398	3219	0.022367	0	0	3398	0	0	0	nan	0	0	0	0.039066	0.005758	0.039066	0.005758	0.878184	0.129437
11	C	42	2499	2404	0.017471	0	0	2499	31	3425	3274	0.009469	0	0	3425	0	0	0	nan	0	0	0	0.008002	0.003187	0.008002	0.003187	0.179881	0.071642
12	C	34	2517	2439	0.013940	0	0	2517	24	3443	3332	0.007203	0	0	3443	0	0	0	nan	0	0	0	0.006737	0.002807	0.006737	0.002807	0.151444	0.063100
13	G	47	2541	2367	0.019856	0	0	2541	11	3466	3189	0.003449	0	0	3466	0	0	0	nan	0	0	0	0.016407	0.003077	0.016407	0.003077	0.368821	0.069169
14	A	57	2555	2371	0.024040	0	0	2555	17	3476	3218	0.005283	0	0	3476	0	0	0	nan	0	0	0	0.018758	0.003432	0.018758	0.003432	0.421670	0.077150
15	G	99	2589	2409	0.041096	0	0	2589	39	3487	3224	0.012097	0	0	3487	0	0	0	nan	0	0	0	0.028999	0.004562	0.028999	0.004562	0.651883	0.102551
16	C	134	2633	2542	0.052714	0	0	2633	37	3517	3396	0.010895	0	0	3517	0	0	0	nan	0	0	0	0.041819	0.004893	0.041819	0.004893	0.940070	0.109992
17	G	45	2658	2561	0.017571	0	0	2658	28	3522	3402	0.008230	0	0	3522	0	0	0	nan	0	0	0	0.009341	0.003046	0.009341	0.003046	0.209981	0.068473
18	G	61	2737	2620	0.023282	0	0	2737	36	3544	3403	0.010579	0	0	3544	0	0	0	nan	0	0	0	0.012704	0.003463	0.012704	0.003463	0.285579	0.077846
19	U	84	3396	3256	0.025799	0	0	3396	145	3691	3554	0.040799	0	0	3691	0	0	0	nan	0	0	0	-0.015001	0.004405	-0.015001	0.004405	-0.337215	0.099022
20	U	12	3744	3584	0.003348	0	0	3744	16	3803	3636	0.004400	0	0	3803	0	0	0	nan	0	0	0	-0.001052	0.001464	-0.001052	0.001464	-0.023648	0.032910
21	G	102	3883	3699	0.027575	0	0	3883	22	3965	3736	0.005889	0	0	3965	0	0	0	nan	0	0	0	0.021686	0.003005	0.021686	0.003005	0.487490	0.067551
22	A	77	4068	3881	0.019840	0	0	4068	9	4004	3765	0.002390	0	0	4004	0	0	0	nan	0	0	0	0.017450	0.002397	0.017450	0.002397	0.392267	0.053883
23	A	407	4145	3929	0.103589	0	0	4145	14	4015	3773	0.003711	0	0	4015	0	0	0	nan	0	0	0	0.099878	0.005230	0.099878	0.005230	2.245206	0.117568
24	G	65	4432	4185	0.015532	0	0	4432	48	4029	3824	0.012552	0	0	4029	0	0	0	nan	0	0	0	0.002979	0.002645	0.002979	0.002645	0.066966	0.059458
25	G	158	4476	4245	0.037220	0	0	4476	48	4041	3850	0.012468	0	0	4041	0	0	0	nan	0	0	0	0.024753	0.003465	0.024753	0.003465	0.556435	0.077891
26	C	21	4523	4222	0.004974	0	0	4523	24	4052	3825	0.006275	0	0	4052	0	0	0	nan	0	0	0	-0.001301	0.001679	-0.001301	0.001679	-0.029246	0.037743
27	A	329	4531	4289	0.076708	0	0	4531	38	4065	3895	0.009756	0	0	4065	0	0	0	nan	0	0	0	0.066952	0.004515	0.066952	0.004515	1.505047	0.101495
28	C	72	4584	4322	0.016659	0	0	4584	69	4075	3873	0.017816	0	0	4075	0	0	0	nan	0	0	0	-0.001157	0.002908	-0.001157	0.002908	-0.026009	0.065370
29	C	29	4607	4414	0.006570	0	0	4607	42	4108	3921	0.010712	0	0	4108	0	0	0	nan	0	0	0	-0.004142	0.002054	-0.004142	0.002054	-0.093110	0.046173
30	G	135	4618	4369	0.030900	0	0	4618	43	4128	3900	0.011026	0	0	4128	0	0	0	nan	0	0	0	0.019874	0.003146	0.019874	0.003146	0.446757	0.070720
31	G	177	4622	4351	0.040680	0	0	4622	41	4137	3912	0.010481	0	0	4137	0	0	0	nan	0	0	0	0.030200	0.003468	0.030200	0.003468	0.678881	0.077959
32	U	58	4649	4432	0.013087	0	0	4649	71	4194	4001	0.017746	0	0	4194	0	0	0	nan	0	0	0	-0.004659	0.002718	-0.004659	0.002718	-0.104732	0.061099
33	C	199	4653	4476	0.044459	0	0	4653	134	4206	4047	0.033111	0	0	4206	0	0	0	nan	0	0	0	0.011348	0.004256	0.011348	0.004256	0.255097	0.095673
34	U	91	4725	4539	0.020048	0	0	4725	93	4340	4166	0.022324	0	0	4340	0	0	0	nan	0	0	0	-0.002275	0.003127	-0.002275	0.003127	-0.051141	0.070293
35	U	391	4750	4518	0.086543	0	0	4750	211	4385	4186	0.050406	0	0	4385	0	0	0	nan	0	0	0	0.036137	0.005585	nan	nan	nan	nan
36	G	93	4774	4560	0.020395	0	0	4774	35	4439	4241	0.008253	0	0	4439	0	0	0	nan	0	0	0	0.012142	0.002533	0.012142	0.002533	0.272946	0.056941
37	A	36	4823	4618	0.007796	0	0	4823	10	4483	4305	0.002323	0	0	4483	0	0	0	nan	0	0	0	0.005473	0.001493	0.005473	0.001493	0.123030	0.033562
38	A	338	4878	4669	0.072392	0	0	4878	340	4496	4320	0.078704	0	0	4496	0	0	0	nan	0	0	0	-0.006311	0.005807	nan	nan	nan	nan
39	A	214	4922	4468	0.047896	0	0	4922	7	4567	4217	0.001660	0	0	4567	0	0	0	nan	0	0	0	0.046236	0.003334	0.046236	0.003334	1.039362	0.074947
40	A	48	5033	4612	0.010408	0	0	5033	41	4570	4246	0.009656	0	0	4570	0	0	0	nan	0	0	0	0.000751	0.002129	0.000751	0.002129	0.016882	0.047859
41	C	42	5042	4622	0.009087	0	0	5042	32	4576	4254	0.007522	0	0	4576	0	0	0	nan	0	0	0	0.001565	0.001932	0.001565	0.001932	0.035180	0.043430
42	C	36	5043	4817	0.007474	0	0	5043	44	4575	4383	0.010039	0	0	4575	0	0	0	nan	0	0	0	-0.002565	0.001960	-0.002565	0.001960	-0.057660	0.044060
43	G	154	5045	4720	0.032627	0	0	5045	48	4586	4323	0.011103	0	0	4586	0	0	0	nan	0	0	0	0.021524	0.003079	0.021524	0.003079	0.483848	0.069214
44	G	178	5046	4715	0.037752	0	0	5046	56	4587	4334	0.012921	0	0	4587	0	0	0	nan	0	0	0	0.024831	0.003315	0.024831	0.003315	0.558188	0.074520
45	C	263	5047	4749	0.055380	0	0	5047	53	4592	4354	0.012173	0	0	4592	0	0	0	nan	0	0	0	0.043207	0.003802	0.043207	0.003802	0.971271	0.085467
46	G	65	5050	4506	0.014425	0	0	5050	10	4595	4136	0.002418	0	0	4595	0	0	0	nan	0	0	0	0.012007	0.001946	0.012007	0.001946	0.269911	0.043745
47	A	217	5051	4498	0.048244	0	0	5051	34	4598	4135	0.008222	0	0	4598	0	0	0	nan	0	0	0	0.040021	0.003566	0.040021	0.003566	0.899652	0.080162
48	C	37	5054	4505	0.008213	0	0	5054	57	4598	4133	0.013791	0	0	4598	0	0	0	nan	0	0	0	-0.005578	0.002272	-0.005578	0.002272	-0.125391	0.051073
49	C	28	5053	4799	0.005835	0	0	5053	39	4598	4391	0.008882	0	0	4598	0	0	0	nan	0	0	0	-0.003047	0.001800	-0.003047	0.001800	-0.068495	0.040463
50	C	28	5053	4742	0.005905	0	0	5053	27	4597	4355	0.006200	0	0	4597	0	0	0	nan	0	0	0	-0.000295	0.001634	-0.000295	0.001634	-0.006631	0.036731
51	G	95	5054	4802	0.019783	0	0	5054	15	4597	4395	0.003413	0	0	4597	0	0	0	nan	0	0	0	0.016370	0.002213	0.016370	0.002213	0.367989	0.049747
52	A	184	5055	4830	0.038095	0	0	5055	13	4599	4416	0.002944	0	0	4599	0	0	0	nan	0	0	0	0.035151	0.002925	0.035151	0.002925	0.790176	0.065753
53	A	201	5056	4920	0.040854	0	0	5056	7	4597	4494	0.001558	0	0	4597	0	0	0	nan	0	0	0	0.039296	0.002941	0.039296	0.002941	0.883354	0.066112
54	A	188	5058	4835	0.038883	0	0	5058	15	4595	4428	0.003388	0	0	4595	0	0	0	nan	0	0	0	0.035496	0.002968	0.035496	0.002968	0.797932	0.066719
55	G	158	5057	4707	0.033567	0	0	5057	56	4592	4338	0.012909	0	0	4592	0	0	0	nan	0	0	0	0.020658	0.003179	0.020658	0.003179	0.464381	0.071462
56	G	144	5056	4608	0.031250	0	0	5056	55	4589	4236	0.012984	0	0	4589	0	0	0	nan	0	0	0	0.018266	0.003138	0.018266	0.003138	0.410610	0.070541
57	G	212	5056	4619	0.045897	0	0	5056	36	4588	4227	0.008517	0	0	4588	0	0	0	nan	0	0	0	0.037381	0.003457	0.037381	0.003457	0.840306	0.077712
58	U	87	5059	4674	0.018614	0	0	5059	66	4588	4254	0.015515	0	1	4588	0	0	0	nan	0	0	0	0.003099	0.002762	0.003099	0.002762	0.069664	0.062088
59	U	56	5061	4690	0.011940	0	0	5061	54	4590	4267	0.012655	0	1	4590	0	0	0	nan	0	0	0	-0.000715	0.002348	-0.000715	0.002348	-0.016073	0.052782
60	C	42	5063	4674	0.008986	0	0	5063	31	4592	4287	0.007231	0	1	4592	0	0	0	nan	0	0	0	0.001755	0.001900	0.001755	0.001900	0.039452	0.042711
61	C	28	5065	4722	0.005930	0	0	5065	16	4592	4340	0.003687	0	1	4592	0	0	0	nan	0	0	0	0.002243	0.001451	0.002243	0.001451	0.050421	0.032618
62	A	78	5065	4778	0.016325	0	0	5065	17	4595	4356	0.003903	0	1	4595	0	0	0	nan	0	0	0	0.012422	0.002077	0.012422	0.002077	0.279240	0.046690
63	G	94	5063	4867	0.019314	0	0	5063	33	4594	4408	0.007486	0	1	4594	0	0	0	nan	0	0	0	0.011827	0.002380	0.011827	0.002380	0.265865	0.053501
64	A	75	5063	4805	0.015609	0	0	5063	28	4594	4374	0.006401	0	1	4594	0	0	0	nan	0	0	0	0.009207	0.002171	0.009207	0.002171	0.206969	0.048803
65	G	315	5060	4735	0.066526	0	0	5060	51	4591	4344	0.011740	0	1	4591	0	0	0	nan	0	0	0	0.054786	0.004093	0.054786	0.004093	1.231561	0.092009
66	U	107	5063	4678	0.022873	0	0	5063	170	4591	4276	0.039757	0	1	4591	0	0	0	nan	0	0	0	-0.016884	0.003767	-0.016884	0.003767	-0.379544	0.084680
67	U	97	5063	4626	0.020968	0	0	5063	74	4590	4229	0.017498	0	1	4590	0	0	0	nan	0	0	0	0.003470	0.002945	0.003470	0.002945	0.078004	0.066202
68	C	94	5059	4644	0.020241	0	0	5059	72	4588	4235	0.017001	0	1	4588	0	0	0	nan	0	0	0	0.003240	0.002894	0.003240	0.002894	0.072834	0.065056
69	G	27	5059	4613	0.005853	0	0	5059	18	4585	4256	0.004229	0	1	4585	0	0	0	nan	0	0	0	0.001624	0.001504	0.001624	0.001504	0.036507	0.033809
70	A	2516	5057	4621	0.544471	0	0	5057	9	4584	4161	0.002163	0	1	4584	0	0	0	nan	0	0	0	0.542308	0.010879	0.542308	0.010879	12.1908	0.244554
71	A	51	5055	4698	0.010856	0	0	5055	31	4582	4220	0.007346	0	1	4582	0	0	0	nan	0	0	0	0.003510	0.002013	0.003510	0.002013	0.078903	0.045251
72	U	31	5055	4736	0.006546	0	0	5055	65	4579	4238	0.015337	0	1	4579	0	0	0	nan	0	0	0	-0.008792	0.002236	-0.008792	0.002236	-0.197640	0.050264
73	C	36	5049	4751	0.007577	0	0	5049	50	4577	4293	0.011647	0	1	4577	0	0	0	nan	0	0	0	-0.004070	0.002076	-0.004070	0.002076	-0.091492	0.046667
74	U	45	5044	4733	0.009508	0	0	5044	64	4567	4253	0.015048	0	1	4567	0	0	0	nan	0	0	0	-0.005540	0.002355	-0.005540	0.002355	-0.124536	0.052939
75	C	60	5040	4624	0.012976	0	0	5040	51	4563	4083	0.012491	0	1	4563	0	0	0	nan	0	0	0	0.000485	0.002422	0.000485	0.002422	0.010903	0.054445
76	U	39	5033	4560	0.008553	0	0	5033	32	4559	4068	0.007866	0	1	4559	0	0	0	nan	0	0	0	0.000686	0.001952	0.000686	0.001952	0.015421	0.043880
77	G	127	5029	4306	0.029494	0	0	5029	46	4557	3779	0.012173	0	1	4557	0	0	0	nan	0	0	0	0.017321	0.003173	0.017321	0.003173	0.389367	0.071327
78	C	57	5028	4233	0.013466	0	0	5028	27	4556	3709	0.007280	0	1	4556	0	0	0	nan	0	0	0	0.006186	0.002268	0.006186	0.002268	0.139058	0.050983
79	G	192	5025	4295	0.044703	0	0	5025	53	4555	3714	0.014270	0	1	4555	0	0	0	nan	0	0	0	0.030433	0.003775	0.030433	0.003775	0.684118	0.084860
80	C	100	5024	4455	0.022447	0	0	5024	55	4555	4009	0.013719	0	1	4555	0	0	0	nan	0	0	0	0.008728	0.002909	0.008728	0.002909	0.196201	0.065393
81	U	61	5020	4579	0.013322	0	0	5020	47	4554	4212	0.011159	0	1	4554	0	0	0	nan	0	0	0	0.002163	0.002358	0.002163	0.002358	0.048623	0.053007
82	U	73	5016	4595	0.015887	0	0	5016	64	4552	4258	0.015031	0	1	4552	0	0	0	nan	0	0	0	0.000856	0.002643	0.000856	0.002643	0.019242	0.059413
83	C	60	5013	4545	0.013201	0	0	5013	31	4551	4175	0.007425	0	1	4551	0	0	0	nan	0	0	0	0.005776	0.002164	0.005776	0.002164	0.129842	0.048646
84	C	78	5011	4463	0.017477	0	0	5011	85	4550	4144	0.020512	0	1	4550	0	0	0	nan	0	0	0	-0.003035	0.002978	-0.003035	0.002978	-0.068225	0.066944
85	G	309	4998	4400	0.070227	0	0	4998	79	4546	4107	0.019235	0	1	4546	0	0	0	nan	0	0	0	0.050992	0.004544	0.050992	0.004544	1.146274	0.102147
86	C	221	4993	4443	0.049741	0	0	4993	41	4546	4162	0.009851	0	1	4546	0	0	0	nan	0	0	0	0.039890	0.003683	0.039890	0.003683	0.896707	0.082792
87	C	240	4983	4333	0.055389	0	0	4983	4	4544	4126	0.000969	0	1	4544	0	0	0	nan	0	0	0	0.054419	0.003608	0.054419	0.003608	1.223311	0.081106
88	A	0	4796	0	nan	0	0	4796	0	4485	0	nan	0	1	4485	0	0	0	nan	0	0	0	nan	nan	nan	nan	nan	nan