File: MaP_analysis/MaP_data_rep2/Eco_invivo_rep2_Ser-TGA-1-1_profile.txt
Nucleotide	Sequence	Modified_mutations	Modified_read_depth	Modified_effective_depth	Modified_rate	Modified_off_target_mapped_depth	Modified_low_mapq_mapped_depth	Modified_mapped_depth	Untreated_mutations	Untreated_read_depth	Untreated_effective_depth	Untreated_rate	Untreated_off_target_mapped_depth	Untreated_low_mapq_mapped_depth	Untreated_mapped_depth	Denatured_mutations	Denatured_read_depth	Denatured_effective_depth	Denatured_rate	Denatured_off_target_mapped_depth	Denatured_low_mapq_mapped_depth	Denatured_mapped_depth	Reactivity_profile	Std_err	HQ_profile	HQ_stderr	Norm_profile	Norm_stderr
1	G	0	2402	2288	0.000000	0	0	2402	0	2806	2679	0.000000	0	0	2806	0	0	0	nan	0	0	0	0.000000	0.000000	0.000000	0.000000	0.000000	0.000000
2	G	0	2490	2370	0.000000	0	0	2490	0	2860	2723	0.000000	0	0	2860	0	0	0	nan	0	0	0	0.000000	0.000000	0.000000	0.000000	0.000000	0.000000
3	A	15	2593	2504	0.005990	0	0	2593	5	2880	2777	0.001801	0	0	2880	0	0	0	nan	0	0	0	0.004190	0.001744	0.004190	0.001744	0.104117	0.043337
4	A	20	2612	2541	0.007871	0	0	2612	10	2885	2781	0.003596	0	0	2885	0	0	0	nan	0	0	0	0.004275	0.002095	0.004275	0.002095	0.106230	0.052059
5	G	240	2621	2516	0.095390	0	0	2621	30	2889	2750	0.010909	0	0	2889	0	0	0	nan	0	0	0	0.084480	0.006471	0.084480	0.006471	2.099247	0.160798
6	U	30	2658	2532	0.011848	0	0	2658	47	2912	2752	0.017078	0	0	2912	0	0	0	nan	0	0	0	-0.005230	0.003299	-0.005230	0.003299	-0.129960	0.081977
7	G	55	2659	2504	0.021965	0	0	2659	27	2915	2758	0.009790	0	0	2915	0	0	0	nan	0	0	0	0.012175	0.003510	0.012175	0.003510	0.302537	0.087220
8	U	655	2689	2521	0.259818	0	0	2689	645	2964	2782	0.231848	0	0	2964	0	0	0	nan	0	0	0	0.027970	0.013653	nan	nan	nan	nan
9	G	50	2734	2579	0.019387	0	0	2734	26	3000	2826	0.009200	0	0	3000	0	0	0	nan	0	0	0	0.010187	0.003282	0.010187	0.003282	0.253137	0.081555
10	G	158	2760	2629	0.060099	0	0	2760	54	3011	2854	0.018921	0	0	3011	0	0	0	nan	0	0	0	0.041178	0.005430	0.041178	0.005430	1.023234	0.134930
11	C	40	2794	2683	0.014909	0	0	2794	35	3033	2899	0.012073	0	0	3033	0	0	0	nan	0	0	0	0.002836	0.003118	0.002836	0.003118	0.070472	0.077479
12	C	33	2811	2720	0.012132	0	0	2811	15	3058	2951	0.005083	0	0	3058	0	0	0	nan	0	0	0	0.007049	0.002487	0.007049	0.002487	0.175161	0.061800
13	G	30	2828	2606	0.011512	0	0	2828	10	3080	2841	0.003520	0	0	3080	0	0	0	nan	0	0	0	0.007992	0.002378	0.007992	0.002378	0.198594	0.059091
14	A	62	2842	2620	0.023664	0	0	2842	9	3093	2855	0.003152	0	0	3093	0	0	0	nan	0	0	0	0.020512	0.003184	0.020512	0.003184	0.509704	0.079119
15	G	84	2862	2643	0.031782	0	0	2862	37	3096	2872	0.012883	0	0	3096	0	0	0	nan	0	0	0	0.018899	0.004063	0.018899	0.004063	0.469622	0.100962
16	C	134	2912	2813	0.047636	0	0	2912	54	3124	3013	0.017922	0	0	3124	0	0	0	nan	0	0	0	0.029714	0.004784	0.029714	0.004784	0.738364	0.118878
17	G	53	2937	2829	0.018735	0	0	2937	23	3132	3013	0.007634	0	0	3132	0	0	0	nan	0	0	0	0.011101	0.003026	0.011101	0.003026	0.275849	0.075193
18	G	43	2965	2831	0.015189	0	0	2965	20	3153	3013	0.006638	0	0	3153	0	0	0	nan	0	0	0	0.008551	0.002751	0.008551	0.002751	0.212484	0.068360
19	U	65	3429	3282	0.019805	0	0	3429	101	3303	3177	0.031791	0	0	3303	0	0	0	nan	0	0	0	-0.011986	0.004005	-0.011986	0.004005	-0.297841	0.099520
20	U	11	3600	3445	0.003193	0	0	3600	11	3423	3292	0.003341	0	0	3423	0	0	0	nan	0	0	0	-0.000148	0.001394	-0.000148	0.001394	-0.003678	0.034640
21	G	74	3735	3533	0.020945	0	0	3735	23	3577	3398	0.006769	0	0	3577	0	0	0	nan	0	0	0	0.014177	0.002814	0.014177	0.002814	0.352285	0.069925
22	A	59	3838	3635	0.016231	0	0	3838	17	3614	3418	0.004974	0	0	3614	0	0	0	nan	0	0	0	0.011257	0.002433	0.011257	0.002433	0.279726	0.060458
23	A	325	3879	3648	0.089090	0	0	3879	19	3623	3414	0.005565	0	0	3623	0	0	0	nan	0	0	0	0.083525	0.005104	0.083525	0.005104	2.075516	0.126830
24	G	61	4062	3850	0.015844	0	0	4062	49	3634	3444	0.014228	0	0	3634	0	0	0	nan	0	0	0	0.001617	0.002872	0.001617	0.002872	0.040181	0.071366
25	G	153	4086	3896	0.039271	0	0	4086	48	3642	3470	0.013833	0	0	3642	0	0	0	nan	0	0	0	0.025438	0.003751	0.025438	0.003751	0.632110	0.093209
26	C	24	4115	3886	0.006176	0	0	4115	17	3650	3448	0.004930	0	0	3650	0	0	0	nan	0	0	0	0.001246	0.001738	0.001246	0.001738	0.030962	0.043188
27	A	361	4134	3944	0.091531	0	0	4134	44	3663	3511	0.012532	0	0	3663	0	0	0	nan	0	0	0	0.078999	0.005175	0.078999	0.005175	1.963049	0.128594
28	C	76	4149	3942	0.019280	0	0	4149	69	3675	3504	0.019692	0	0	3675	0	0	0	nan	0	0	0	-0.000412	0.003242	-0.000412	0.003242	-0.010238	0.080561
29	C	41	4167	3991	0.010273	0	0	4167	39	3701	3539	0.011020	0	0	3701	0	0	0	nan	0	0	0	-0.000747	0.002385	-0.000747	0.002385	-0.018562	0.059265
30	G	99	4171	3961	0.024994	0	0	4171	32	3716	3507	0.009125	0	0	3716	0	0	0	nan	0	0	0	0.015869	0.002985	0.015869	0.002985	0.394329	0.074174
31	G	171	4179	3956	0.043225	0	0	4179	36	3723	3500	0.010286	0	0	3723	0	0	0	nan	0	0	0	0.032940	0.003724	0.032940	0.003724	0.818527	0.092538
32	U	63	4226	4034	0.015617	0	0	4226	61	3766	3573	0.017072	0	0	3766	0	0	0	nan	0	0	0	-0.001455	0.002941	-0.001455	0.002941	-0.036155	0.073081
33	C	184	4229	4063	0.045287	0	0	4229	95	3785	3621	0.026236	0	0	3785	0	0	0	nan	0	0	0	0.019051	0.004289	0.019051	0.004289	0.473399	0.106578
34	U	84	4338	4180	0.020096	0	0	4338	104	3923	3767	0.027608	0	0	3923	0	0	0	nan	0	0	0	-0.007512	0.003484	-0.007512	0.003484	-0.186666	0.086574
35	U	363	4382	4176	0.086925	0	0	4382	182	3974	3792	0.047996	0	0	3974	0	0	0	nan	0	0	0	0.038930	0.005786	0.038930	0.005786	0.967373	0.143777
36	G	83	4446	4251	0.019525	0	0	4446	23	4032	3836	0.005996	0	0	4032	0	0	0	nan	0	0	0	0.013529	0.002481	0.013529	0.002481	0.336183	0.061650
37	A	26	4498	4289	0.006062	0	0	4498	8	4082	3894	0.002054	0	0	4082	0	0	0	nan	0	0	0	0.004008	0.001393	0.004008	0.001393	0.099595	0.034615
38	A	332	4543	4325	0.076763	0	0	4543	320	4097	3920	0.081633	0	0	4097	0	0	0	nan	0	0	0	-0.004870	0.006211	nan	nan	nan	nan
39	A	187	4667	4256	0.043938	0	0	4667	6	4201	3867	0.001552	0	0	4201	0	0	0	nan	0	0	0	0.042386	0.003275	0.042386	0.003275	1.053251	0.081381
40	A	46	4749	4368	0.010531	0	0	4749	39	4209	3876	0.010062	0	0	4209	0	0	0	nan	0	0	0	0.000469	0.002238	0.000469	0.002238	0.011654	0.055612
41	C	37	4759	4399	0.008411	0	0	4759	28	4214	3905	0.007170	0	0	4214	0	0	0	nan	0	0	0	0.001241	0.001936	0.001241	0.001936	0.030838	0.048108
42	C	40	4763	4543	0.008805	0	0	4763	40	4219	4043	0.009894	0	0	4219	0	0	0	nan	0	0	0	-0.001089	0.002094	-0.001089	0.002094	-0.027061	0.052034
43	G	113	4770	4471	0.025274	0	0	4770	48	4224	3977	0.012069	0	0	4224	0	0	0	nan	0	0	0	0.013205	0.002947	0.013205	0.002947	0.328132	0.073230
44	G	176	4770	4477	0.039312	0	0	4770	56	4225	3982	0.014063	0	0	4225	0	0	0	nan	0	0	0	0.025249	0.003509	0.025249	0.003509	0.627413	0.087195
45	C	253	4773	4516	0.056023	0	0	4773	71	4227	3999	0.017754	0	0	4227	0	0	0	nan	0	0	0	0.038269	0.004104	0.038269	0.004104	0.950948	0.101980
46	G	43	4780	4285	0.010035	0	0	4780	18	4232	3820	0.004712	0	1	4232	0	0	0	nan	0	0	0	0.005323	0.001891	0.005323	0.001891	0.132271	0.046990
47	A	202	4782	4287	0.047119	0	0	4782	38	4236	3810	0.009974	0	1	4236	0	0	0	nan	0	0	0	0.037145	0.003689	0.037145	0.003689	0.923018	0.091668
48	C	35	4783	4296	0.008147	0	0	4783	47	4239	3823	0.012294	0	1	4239	0	0	0	nan	0	0	0	-0.004147	0.002261	-0.004147	0.002261	-0.103049	0.056184
49	C	31	4783	4575	0.006776	0	0	4783	27	4242	4059	0.006652	0	1	4242	0	0	0	nan	0	0	0	0.000124	0.001766	0.000124	0.001766	0.003081	0.043883
50	C	34	4784	4505	0.007547	0	0	4784	29	4241	3999	0.007252	0	1	4241	0	0	0	nan	0	0	0	0.000295	0.001868	0.000295	0.001868	0.007330	0.046418
51	G	85	4783	4550	0.018681	0	0	4783	20	4240	4038	0.004953	0	1	4240	0	0	0	nan	0	0	0	0.013728	0.002309	0.013728	0.002309	0.341128	0.057376
52	A	181	4785	4584	0.039485	0	0	4785	13	4240	4060	0.003202	0	1	4240	0	0	0	nan	0	0	0	0.036283	0.003066	0.036283	0.003066	0.901598	0.076187
53	A	189	4786	4672	0.040454	0	0	4786	16	4241	4132	0.003872	0	1	4241	0	0	0	nan	0	0	0	0.036582	0.003098	0.036582	0.003098	0.909028	0.076982
54	A	231	4785	4601	0.050206	0	0	4785	9	4238	4065	0.002214	0	1	4238	0	0	0	nan	0	0	0	0.047992	0.003385	0.047992	0.003385	1.192555	0.084114
55	G	157	4780	4478	0.035060	0	0	4780	59	4236	3956	0.014914	0	1	4236	0	0	0	nan	0	0	0	0.020146	0.003406	0.020146	0.003406	0.500609	0.084636
56	G	119	4782	4394	0.027082	0	0	4782	48	4236	3880	0.012371	0	1	4236	0	0	0	nan	0	0	0	0.014711	0.003058	0.014711	0.003058	0.365554	0.075988
57	G	196	4779	4376	0.044790	0	0	4779	35	4230	3847	0.009098	0	1	4230	0	0	0	nan	0	0	0	0.035692	0.003550	0.035692	0.003550	0.886912	0.088214
58	U	57	4782	4431	0.012864	0	0	4782	66	4231	3910	0.016880	0	1	4231	0	0	0	nan	0	0	0	-0.004016	0.002687	-0.004016	0.002687	-0.099794	0.066769
59	U	50	4790	4457	0.011218	0	0	4790	58	4239	3944	0.014706	0	1	4239	0	0	0	nan	0	0	0	-0.003488	0.002499	-0.003488	0.002499	-0.086673	0.062098
60	C	61	4797	4465	0.013662	0	0	4797	36	4241	3973	0.009061	0	1	4241	0	0	0	nan	0	0	0	0.004601	0.002311	0.004601	0.002311	0.114330	0.057426
61	C	22	4824	4531	0.004855	0	0	4824	5	4250	4004	0.001249	0	1	4250	0	0	0	nan	0	0	0	0.003607	0.001176	0.003607	0.001176	0.089630	0.029222
62	A	65	4827	4561	0.014251	0	0	4827	14	4257	4036	0.003469	0	1	4257	0	0	0	nan	0	0	0	0.010782	0.001996	0.010782	0.001996	0.267922	0.049599
63	G	63	4825	4646	0.013560	0	0	4825	23	4257	4090	0.005623	0	1	4257	0	0	0	nan	0	0	0	0.007937	0.002072	0.007937	0.002072	0.197227	0.051487
64	A	73	4823	4588	0.015911	0	0	4823	23	4258	4067	0.005655	0	1	4258	0	0	0	nan	0	0	0	0.010256	0.002204	0.010256	0.002204	0.254852	0.054767
65	G	216	4819	4527	0.047714	0	0	4819	50	4258	4028	0.012413	0	1	4258	0	0	0	nan	0	0	0	0.035301	0.003691	0.035301	0.003691	0.877196	0.091718
66	U	103	4819	4477	0.023006	0	0	4819	166	4260	3977	0.041740	0	1	4260	0	0	0	nan	0	0	0	-0.018734	0.003954	-0.018734	0.003954	-0.465522	0.098253
67	U	83	4819	4431	0.018732	0	0	4819	79	4262	3938	0.020061	0	1	4262	0	0	0	nan	0	0	0	-0.001329	0.003053	-0.001329	0.003053	-0.033024	0.075864
68	C	76	4816	4442	0.017109	0	0	4816	70	4262	3961	0.017672	0	1	4262	0	0	0	nan	0	0	0	-0.000563	0.002883	-0.000563	0.002883	-0.013990	0.071640
69	G	18	4816	4440	0.004054	0	0	4816	16	4262	4013	0.003987	0	1	4262	0	0	0	nan	0	0	0	0.000067	0.001381	0.000067	0.001381	0.001665	0.034317
70	A	2369	4814	4407	0.537554	0	0	4814	20	4262	3922	0.005099	0	1	4262	0	0	0	nan	0	0	0	0.532454	0.011103	0.532454	0.011103	13.231	0.275899
71	A	62	4814	4458	0.013908	0	0	4814	44	4260	3956	0.011122	0	1	4260	0	0	0	nan	0	0	0	0.002785	0.002435	0.002785	0.002435	0.069205	0.060507
72	U	28	4812	4487	0.006240	0	0	4812	61	4258	3930	0.015522	0	1	4258	0	0	0	nan	0	0	0	-0.009281	0.002311	-0.009281	0.002311	-0.230624	0.057426
73	C	33	4812	4530	0.007285	0	0	4812	36	4253	3983	0.009038	0	1	4253	0	0	0	nan	0	0	0	-0.001754	0.001969	-0.001754	0.001969	-0.043585	0.048928
74	U	48	4806	4506	0.010652	0	0	4806	57	4247	3969	0.014361	0	1	4247	0	0	0	nan	0	0	0	-0.003709	0.002446	-0.003709	0.002446	-0.092165	0.060781
75	C	65	4801	4358	0.014915	0	0	4801	54	4245	3812	0.014166	0	1	4245	0	0	0	nan	0	0	0	0.000749	0.002672	0.000749	0.002672	0.018612	0.066397
76	U	41	4797	4324	0.009482	0	0	4797	35	4236	3798	0.009215	0	1	4236	0	0	0	nan	0	0	0	0.000267	0.002149	0.000267	0.002149	0.006635	0.053401
77	G	102	4795	4074	0.025037	0	0	4795	45	4233	3512	0.012813	0	1	4233	0	0	0	nan	0	0	0	0.012224	0.003130	0.012224	0.003130	0.303755	0.077778
78	C	43	4793	4026	0.010681	0	0	4793	25	4231	3424	0.007301	0	1	4231	0	0	0	nan	0	0	0	0.003379	0.002188	0.003379	0.002188	0.083965	0.054370
79	G	131	4791	4074	0.032155	0	0	4791	48	4227	3437	0.013966	0	1	4227	0	0	0	nan	0	0	0	0.018189	0.003458	0.018189	0.003458	0.451979	0.085928
80	C	81	4790	4269	0.018974	0	0	4790	56	4227	3703	0.015123	0	1	4227	0	0	0	nan	0	0	0	0.003851	0.002920	0.003851	0.002920	0.095694	0.072559
81	U	60	4787	4409	0.013609	0	0	4787	47	4227	3890	0.012082	0	1	4227	0	0	0	nan	0	0	0	0.001526	0.002488	0.001526	0.002488	0.037920	0.061824
82	U	66	4784	4435	0.014882	0	0	4784	64	4225	3922	0.016318	0	1	4225	0	0	0	nan	0	0	0	-0.001437	0.002742	-0.001437	0.002742	-0.035708	0.068136
83	C	51	4781	4374	0.011660	0	0	4781	50	4225	3848	0.012994	0	1	4225	0	0	0	nan	0	0	0	-0.001334	0.002458	-0.001334	0.002458	-0.033149	0.061079
84	C	81	4778	4300	0.018837	0	0	4778	90	4223	3800	0.023684	0	1	4223	0	0	0	nan	0	0	0	-0.004847	0.003258	-0.004847	0.003258	-0.120443	0.080958
85	G	265	4757	4234	0.062589	0	0	4757	86	4212	3761	0.022866	0	1	4212	0	0	0	nan	0	0	0	0.039722	0.004568	0.039722	0.004568	0.987054	0.113510
86	C	197	4749	4285	0.045974	0	0	4749	39	4212	3826	0.010193	0	1	4212	0	0	0	nan	0	0	0	0.035781	0.003660	0.035781	0.003660	0.889124	0.090947
87	C	208	4737	4197	0.049559	0	0	4737	7	4208	3832	0.001827	0	1	4208	0	0	0	nan	0	0	0	0.047732	0.003505	0.047732	0.003505	1.186094	0.087096
88	A	0	4582	0	nan	0	0	4582	0	4149	0	nan	0	1	4149	0	0	0	nan	0	0	0	nan	nan	nan	nan	nan	nan